Folder: Pivot/data/raw

Note: README.md
# Pivot

Pivot is a control system for a rotary switching mechanism. This repository contains both the Python control software and the Arduino firmware.

## Structure

- `pivot/` – Python package
- `arduino/` – Arduino firmware
- `examples/` – Example usage scripts
- `tests/` – Python tests
- `docs/` – Documentation

## Python Setup

```bash
python -m venv .venv
.venv\Scripts\activate      # On Windows
source .venv/bin/activate   # On Mac/Linux

pip install -r requirements.txt

File: 20240321_C_GM0016_HL03_E01_CV50.DTA
EXPLAIN
TAG	CV
TITLE	LABEL	Cyclic Voltammetry	Test &Identifier
DATE	LABEL	3/21/2024	Date
TIME	LABEL	16:10:21	Time
NOTES	NOTES	1	&Notes...

PSTAT	PSTAT	REF600P-43058	Potentiostat
VINIT	POTEN	0.00000E+000	T	Initial &E (V)
VLIMIT1	POTEN	-6.00000E-001	F	Scan Limit &1 (V)
VLIMIT2	POTEN	8.00000E-001	F	Scan Limit &2 (V)
VFINAL	POTEN	0.00000E+000	T	Final &E (V)
SCANRATE	QUANT	4.99999E+001	&Scan Rate (mV/s)
STEPSIZE	QUANT	1.00000E+001	St&ep Size (mV)
CYCLES	IQUANT	4	C&ycles (#)
IMODE	SELECTOR	1	I/E Range &Mode
IRANGE	QUANT	1.00000E-005	&Max Current (mA)
AREA	QUANT	1.00000E+000	Electrode &Area (cm^2)
ELECTRODETYPE	SELECTOR	0	Electrode Type
STRIPPING	TOGGLE	F	Used for Stripping
POLARITY	TOGGLE	F	Signal Polarity
CONDIT	TWOPARAM	F	1.50000E+001	0.00000E+000	Conditionin&g	Time(s)	E(V)
DELAY	TWOPARAM	T	1.00000E+001	0.00000E+000	Init. De&lay	Time(s)	Stab.(mV/s)
EQDELAY	QUANT	1.00000E+001	Equil. &Time (s)
IRCOMP	SELECTOR	0	IRCom&p
PFCOR	QUANT	5.00000E+001	PF Corr. (ohm)
SAMPLINGMODE	SELECTOR	0	Sampling &Mode
OCVCURVE	TABLE	39
	Pt	T	Vf	Vm	Ach	Over	Temp
	#	s	V vs. Ref.	V	V	bits	deg C
	0	0.258333	1.47195E-001	1.47195E-001	2.30089E-004	..........a	-327.66
	1	0.516667	1.47201E-001	1.47476E-001	2.24289E-004	..........a	-327.66
	2	0.775	1.47234E-001	1.47777E-001	2.21956E-004	..........a	-327.66
	3	1.03333	1.47332E-001	1.48088E-001	2.16689E-004	..........a	-327.66
	4	1.29167	1.47513E-001	1.48410E-001	2.17089E-004	..........a	-327.66
	5	1.55	1.47766E-001	1.48729E-001	2.27356E-004	..........a	-327.66
	6	1.80833	1.48063E-001	1.49057E-001	2.21889E-004	..........a	-327.66
	7	2.06667	1.48380E-001	1.49376E-001	2.22622E-004	..........a	-327.66
	8	2.325	1.48703E-001	1.49699E-001	2.17022E-004	..........a	-327.66
	9	2.58333	1.49028E-001	1.50019E-001	2.26289E-004	..........a	-327.66
	10	2.84167	1.49351E-001	1.50343E-001	2.23956E-004	..........a	-327.66
	11	3.1	1.49673E-001	1.50664E-001	2.31156E-004	..........a	-327.66
	12	3.35833	1.49995E-001	1.50988E-001	2.21889E-004	..........a	-327.66
	13	3.61667	1.50317E-001	1.51305E-001	2.15556E-004	..........a	-327.66
	14	3.875	1.50639E-001	1.51626E-001	2.19022E-004	..........a	-327.66
	15	4.13333	1.50960E-001	1.51937E-001	2.25622E-004	..........a	-327.66
	16	4.39167	1.51280E-001	1.52259E-001	2.14822E-004	..........a	-327.66
	17	4.65	1.51598E-001	1.52573E-001	2.27756E-004	..........a	-327.66
	18	4.90833	1.51915E-001	1.52887E-001	2.29822E-004	..........a	-327.66
	19	5.16667	1.52232E-001	1.53205E-001	2.16756E-004	..........a	-327.66
	20	5.425	1.52548E-001	1.53520E-001	2.24289E-004	..........a	-327.66
	21	5.68333	1.52864E-001	1.53832E-001	2.18022E-004	..........a	-327.66
	22	5.94167	1.53179E-001	1.54150E-001	2.21822E-004	..........a	-327.66
	23	6.2	1.53494E-001	1.54458E-001	2.25622E-004	..........a	-327.66
	24	6.45833	1.53809E-001	1.54774E-001	2.14956E-004	..........a	-327.66
	25	6.71667	1.54122E-001	1.55082E-001	2.27689E-004	..........a	-327.66
	26	6.975	1.54435E-001	1.55395E-001	2.32756E-004	..........a	-327.66
	27	7.23333	1.54747E-001	1.55702E-001	2.26622E-004	..........a	-327.66
	28	7.49167	1.55058E-001	1.56008E-001	2.23289E-004	..........a	-327.66
	29	7.75	1.55368E-001	1.56309E-001	2.19356E-004	..........a	-327.66
	30	8.00833	1.55676E-001	1.56612E-001	2.20689E-004	..........a	-327.66
	31	8.26667	1.55982E-001	1.56913E-001	2.18489E-004	..........a	-327.66
	32	8.525	1.56286E-001	1.57220E-001	2.19489E-004	..........a	-327.66
	33	8.78333	1.56589E-001	1.57509E-001	2.18489E-004	..........a	-327.66
	34	9.04167	1.56890E-001	1.57815E-001	2.23956E-004	..........a	-327.66
	35	9.3	1.57191E-001	1.58119E-001	2.21889E-004	..........a	-327.66
	36	9.5583	1.57491E-001	1.58419E-001	2.31889E-004	..........a	-327.66
	37	9.8167	1.57792E-001	1.58711E-001	2.30289E-004	..........a	-327.66
	38	10.075	1.58092E-001	1.59005E-001	2.18489E-004	..........a	-327.66
EOC	QUANT	0.1580925	Open Circuit (V)
PSTATMODEL	IQUANT	7	Pstat Model
PSTATSECTION	LABEL	REF600P-43058	Pstat Section
PSTATSERIALNO	LABEL	43058	Pstat Serial Number
CTRLMODE	IQUANT	1	Control Mode
ELECTROMETER	IQUANT	0	RE=0 or CS=1
IESTAB	IQUANT	2	I/E Stability
CASPEED	IQUANT	4	Control Amp Speed
CONVENTION	IQUANT	1	Current Convention
ICHRANGE	IQUANT	2	Ich Range
ICHRANGEMODE	TOGGLE	F	Ich Auto Range
ICHOFFSETENABLE	TOGGLE	F	Ich Offset Enable
ICHOFFSET	QUANT	0	Ich Offset (V)
ICHFILTER	IQUANT	2	Ich Filter
VCHRANGE	IQUANT	2	Vch Range
VCHRANGEMODE	TOGGLE	F	Vch Auto Range
VCHOFFSETENABLE	TOGGLE	F	Vch Offset Enable
VCHOFFSET	QUANT	0	Vch Offset (V)
VCHFILTER	IQUANT	2	Vch Filter
ACHRANGE	IQUANT	2	Ach Range
ACHOFFSETENABLE	TOGGLE	F	Ach Offset Enable
ACHOFFSET	QUANT	0	Ach Offset (V)
ACHFILTER	IQUANT	1	Ach Filter
IERANGELOWERLIMIT	IQUANT	1	I/E Range Lower Limit
IERANGEMODE	TOGGLE	F	I/E AutoRange
IERANGE	IQUANT	4	I/E Range
POSFEEDENABLE	TOGGLE	F	Positive Feedback IR Comp
POSFEEDRESISTANCE	QUANT	0	Positive Feedback Resistance (ohm)
ACHSELECT	IQUANT	4	Ach Select
SENSECABLEID	IQUANT	7	Sense Cable ID
PWRCABLEID	IQUANT	7	Power Cable ID
DCCALDATE	LABEL	12/18/2023	DC Calibration Date
ACCALDATE	LABEL	12/18/2023	AC Calibration Date
THERMOSELECT	IQUANT	1	Thermo Select
FRAMEWORKVERSION	LABEL	7.8.4	Framework Version
INSTRUMENTVERSION	LABEL	4.42	Instrument Version
CURVE1	TABLE
	Pt	T	Vf	Im	Vu	Sig	Ach	IERange	Over	Temp
	#	s	V vs. Ref.	A	V	V	V	#	bits	deg C
	0	0.2	1.58214E-001	7.01007E-012	0.00000E+000	1.58100E-001	8.00223E-005	4	...........	 0.01
	3	0.8	1.28214E-001	-4.09918E-011	0.00000E+000	1.28100E-001	8.00223E-005	4	...........	 0.01
	6	1.4	9.84138E-002	-5.49923E-011	0.00000E+000	9.81000E-002	8.00223E-005	4	...........	 0.01
	9	2	6.80138E-002	-6.29926E-011	0.00000E+000	6.81000E-002	8.00223E-005	4	...........	 0.01
	12	2.6	3.84138E-002	-7.09929E-011	0.00000E+000	3.81000E-002	8.00223E-005	4	...........	 0.01
	15	3.2	8.21379E-003	-8.29934E-011	0.00000E+000	8.10000E-003	8.00223E-005	4	...........	 0.01
	18	3.8	-2.19862E-002	-9.89940E-011	0.00000E+000	-2.19000E-002	-2.19978E-004	4	...........	 0.01
	21	4.4	-5.17862E-002	-1.26995E-010	0.00000E+000	-5.19000E-002	8.00223E-005	4	...........	 0.01
	24	5	-8.17862E-002	-1.72997E-010	0.00000E+000	-8.19000E-002	-3.19978E-004	4	...........	 0.01
	27	5.6	-1.11786E-001	-2.71001E-010	0.00000E+000	-1.11900E-001	8.00223E-005	4	...........	 0.01
	30	6.2	-1.41786E-001	-4.71008E-010	0.00000E+000	-1.41900E-001	8.00223E-005	4	...........	 0.01
	33	6.8	-1.71586E-001	-8.83024E-010	0.00000E+000	-1.71900E-001	-3.19978E-004	4	...........	 0.01
	36	7.4	-2.01586E-001	-1.65105E-009	0.00000E+000	-2.01900E-001	8.00223E-005	4	...........	 0.01
	39	8	-2.31786E-001	-2.82510E-009	0.00000E+000	-2.31900E-001	8.00223E-005	4	...........	 0.01
	42	8.6	-2.61586E-001	-4.25115E-009	0.00000E+000	-2.61900E-001	8.00223E-005	4	...........	 0.01
	45	9.2	-2.91786E-001	-5.60321E-009	0.00000E+000	-2.91900E-001	8.00223E-005	4	...........	 0.01
	48	9.8	-3.21786E-001	-6.66325E-009	0.00000E+000	-3.21900E-001	8.00223E-005	4	...........	 0.01
	51	10.4	-3.51586E-001	-7.41527E-009	0.00000E+000	-3.51900E-001	8.00223E-005	4	...........	 0.01
	54	11	-3.81786E-001	-7.94129E-009	0.00000E+000	-3.81900E-001	8.00223E-005	4	...........	 0.01
	57	11.6	-4.11786E-001	-8.36931E-009	0.00000E+000	-4.11900E-001	8.00223E-005	4	...........	 0.01
	60	12.2	-4.41586E-001	-8.74333E-009	0.00000E+000	-4.41900E-001	8.00223E-005	4	...........	 0.01
	63	12.8	-4.71786E-001	-9.13134E-009	0.00000E+000	-4.71900E-001	8.00223E-005	4	...........	 0.01
	66	13.4	-5.01686E-001	-9.59536E-009	0.00000E+000	-5.01900E-001	8.00223E-005	4	...........	 0.01
	69	14	-5.31786E-001	-1.01734E-008	0.00000E+000	-5.31900E-001	8.00223E-005	4	...........	 0.01
	72	14.6	-5.61586E-001	-1.09194E-008	0.00000E+000	-5.61900E-001	8.00223E-005	4	...........	 0.01
	75	15.2	-5.91586E-001	-1.18274E-008	0.00000E+000	-5.91900E-001	8.00223E-005	4	...........	 0.01
	78	15.8	-5.81586E-001	-1.12594E-008	0.00000E+000	-5.81900E-001	8.00223E-005	4	...........	 0.01
	81	16.4	-5.51786E-001	-1.03194E-008	0.00000E+000	-5.51900E-001	8.00223E-005	4	...........	 0.01
	84	17	-5.21586E-001	-9.58336E-009	0.00000E+000	-5.21900E-001	-3.19978E-004	4	...........	 0.01
	87	17.6	-4.91786E-001	-8.96733E-009	0.00000E+000	-4.91900E-001	8.00223E-005	4	...........	 0.01
	90	18.2	-4.61586E-001	-8.43931E-009	0.00000E+000	-4.61900E-001	8.00223E-005	4	...........	 0.01
	93	18.8	-4.31786E-001	-7.95329E-009	0.00000E+000	-4.31900E-001	8.00223E-005	4	...........	 0.01
	96	19.4	-4.01786E-001	-7.47928E-009	0.00000E+000	-4.01900E-001	8.00223E-005	4	...........	 0.01
	99	20	-3.71786E-001	-6.95126E-009	0.00000E+000	-3.71900E-001	8.00223E-005	4	...........	 0.01
	102	20.6	-3.41586E-001	-6.30723E-009	0.00000E+000	-3.41900E-001	8.00223E-005	4	...........	 0.01
	105	21.2	-3.11786E-001	-5.47120E-009	0.00000E+000	-3.11900E-001	8.00223E-005	4	...........	 0.01
	108	21.8	-2.81786E-001	-4.41916E-009	0.00000E+000	-2.81900E-001	8.00223E-005	4	...........	 0.01
	111	22.4	-2.51786E-001	-3.19111E-009	0.00000E+000	-2.51900E-001	8.00223E-005	4	...........	 0.01
	114	23	-2.21786E-001	-1.99907E-009	0.00000E+000	-2.21900E-001	8.00223E-005	4	...........	 0.01
	117	23.6	-1.91986E-001	-1.05503E-009	0.00000E+000	-1.91900E-001	-3.19978E-004	4	...........	 0.01
	120	24.2	-1.61786E-001	-4.39007E-010	0.00000E+000	-1.61900E-001	8.00223E-005	4	...........	 0.01
	123	24.8	-1.31986E-001	-1.00994E-010	0.00000E+000	-1.31900E-001	8.00223E-005	4	...........	 0.01
	126	25.4	-1.01786E-001	5.70120E-011	0.00000E+000	-1.01900E-001	8.00223E-005	4	...........	 0.01
	129	26	-7.17862E-002	1.27015E-010	0.00000E+000	-7.19000E-002	8.00223E-005	4	...........	 0.01
	132	26.6	-4.17862E-002	1.59016E-010	0.00000E+000	-4.19000E-002	-3.19978E-004	4	...........	 0.01
	135	27.2	-1.17862E-002	1.59016E-010	0.00000E+000	-1.19000E-002	8.00223E-005	4	...........	 0.01
	138	27.8	1.80138E-002	1.57016E-010	0.00000E+000	1.81000E-002	8.00223E-005	4	...........	 0.01
	141	28.4	4.82138E-002	1.59016E-010	0.00000E+000	4.81000E-002	8.00223E-005	4	...........	 0.01
	144	29	7.80138E-002	1.57016E-010	0.00000E+000	7.81000E-002	8.00223E-005	4	...........	 0.01
	147	29.6	1.08214E-001	1.63016E-010	0.00000E+000	1.08100E-001	8.00223E-005	4	...........	 0.01
	150	30.2	1.38214E-001	1.69016E-010	0.00000E+000	1.38100E-001	8.00223E-005	4	...........	 0.01
	153	30.8	1.67814E-001	1.83017E-010	0.00000E+000	1.68100E-001	8.00223E-005	4	...........	 0.01
	156	31.4	1.98214E-001	2.17018E-010	0.00000E+000	1.98100E-001	8.00223E-005	4	...........	 0.01
	159	32	2.27914E-001	2.41019E-010	0.00000E+000	2.28100E-001	8.00223E-005	4	...........	 0.01
	162	32.6	2.58214E-001	2.47019E-010	0.00000E+000	2.58100E-001	8.00223E-005	4	...........	 0.01
	165	33.2	2.88214E-001	2.47019E-010	0.00000E+000	2.88100E-001	8.00223E-005	4	...........	 0.01
	168	33.8	3.18014E-001	2.41019E-010	0.00000E+000	3.18100E-001	8.00223E-005	4	...........	 0.01
	171	34.4	3.48214E-001	2.31019E-010	0.00000E+000	3.48100E-001	8.00223E-005	4	...........	 0.01
	174	35	3.78014E-001	2.21018E-010	0.00000E+000	3.78100E-001	8.00223E-005	4	...........	 0.01
	177	35.6	4.08214E-001	2.15018E-010	0.00000E+000	4.08100E-001	8.00223E-005	4	...........	 0.01
	180	36.2	4.37714E-001	2.07018E-010	0.00000E+000	4.38100E-001	8.00223E-005	4	...........	 0.01
	183	36.8	4.68214E-001	2.09018E-010	0.00000E+000	4.68100E-001	8.00223E-005	4	...........	 0.01
	186	37.4	4.98214E-001	2.09018E-010	0.00000E+000	4.98100E-001	8.00223E-005	4	...........	 0.01
	189	38	5.28214E-001	2.15018E-010	0.00000E+000	5.28100E-001	8.00223E-005	4	...........	 0.01
	192	38.6	5.58214E-001	2.17018E-010	0.00000E+000	5.58100E-001	8.00223E-005	4	...........	 0.01
	195	39.2	5.88014E-001	2.21018E-010	0.00000E+000	5.88100E-001	8.00223E-005	4	...........	 0.01
	198	39.8	6.18314E-001	2.31019E-010	0.00000E+000	6.18100E-001	8.00223E-005	4	...........	 0.01
	201	40.4	6.48014E-001	2.47019E-010	0.00000E+000	6.48100E-001	8.00223E-005	4	...........	 0.01
	204	41	6.78014E-001	2.49019E-010	0.00000E+000	6.78100E-001	8.00223E-005	4	...........	 0.01
	207	41.6	7.07914E-001	2.65020E-010	0.00000E+000	7.08100E-001	8.00223E-005	4	...........	 0.01
	210	42.2	7.38414E-001	2.89021E-010	0.00000E+000	7.38100E-001	8.00223E-005	4	...........	 0.01
	213	42.8	7.68014E-001	3.43023E-010	0.00000E+000	7.68100E-001	8.00223E-005	4	...........	 0.01
	216	43.4	7.98014E-001	4.61028E-010	0.00000E+000	7.98100E-001	8.00223E-005	4	...........	 0.01
CURVE2	TABLE
	Pt	T	Vf	Im	Vu	Sig	Ach	IERange	Over	Temp
	#	s	V vs. Ref.	A	V	V	V	#	bits	deg C
	217	43.6	7.89814E-001	3.03021E-010	0.00000E+000	7.90000E-001	8.00223E-005	4	...........	 0.01
	220	44.2	7.60014E-001	8.70131E-011	0.00000E+000	7.60000E-001	8.00223E-005	4	...........	 0.01
	223	44.8	7.30314E-001	5.00999E-012	0.00000E+000	7.30000E-001	8.00223E-005	4	...........	 0.01
	226	45.4	7.00014E-001	-3.49915E-011	0.00000E+000	7.00000E-001	8.00223E-005	4	...........	 0.01
	229	46	6.70014E-001	-5.09922E-011	0.00000E+000	6.70000E-001	8.00223E-005	4	...........	 0.01
	232	46.6	6.40014E-001	-5.29922E-011	0.00000E+000	6.40000E-001	8.00223E-005	4	...........	 0.01
	235	47.2	6.09914E-001	-5.69924E-011	0.00000E+000	6.10000E-001	8.00223E-005	4	...........	 0.01
	238	47.8	5.80014E-001	-6.29926E-011	0.00000E+000	5.80000E-001	8.00223E-005	4	...........	 0.01
	241	48.4	5.50014E-001	-6.69928E-011	0.00000E+000	5.50000E-001	8.00223E-005	4	...........	 0.01
	244	49	5.20014E-001	-7.09929E-011	0.00000E+000	5.20000E-001	8.00223E-005	4	...........	 0.01
	247	49.6	4.90214E-001	-7.09929E-011	0.00000E+000	4.90000E-001	8.00223E-005	4	...........	 0.01
	250	50.2	4.60014E-001	-7.29930E-011	0.00000E+000	4.60000E-001	8.00223E-005	4	...........	 0.01
	253	50.8	4.30014E-001	-8.29934E-011	0.00000E+000	4.30000E-001	8.00223E-005	4	...........	 0.01
	256	51.4	4.00214E-001	-8.89936E-011	0.00000E+000	4.00000E-001	8.00223E-005	4	...........	 0.01
	259	52	3.70014E-001	-9.49938E-011	0.00000E+000	3.70000E-001	8.00223E-005	4	...........	 0.01
	262	52.6	3.40014E-001	-1.02994E-010	0.00000E+000	3.40000E-001	8.00223E-005	4	...........	 0.01
	265	53.2	3.10014E-001	-1.04994E-010	0.00000E+000	3.10000E-001	8.00223E-005	4	...........	 0.01
	268	53.8	2.80014E-001	-1.12995E-010	0.00000E+000	2.80000E-001	8.00223E-005	4	...........	 0.01
	271	54.4	2.50214E-001	-1.20995E-010	0.00000E+000	2.50000E-001	8.00223E-005	4	...........	 0.01
	274	55	2.20014E-001	-1.30995E-010	0.00000E+000	2.20000E-001	8.00223E-005	4	...........	 0.01
	277	55.6	1.90214E-001	-1.40996E-010	0.00000E+000	1.90000E-001	8.00223E-005	4	...........	 0.01
	280	56.2	1.60014E-001	-1.46996E-010	0.00000E+000	1.60000E-001	8.00223E-005	4	...........	 0.01
	283	56.8	1.30414E-001	-1.58996E-010	0.00000E+000	1.30000E-001	8.00223E-005	4	...........	 0.01
	286	57.4	1.00014E-001	-1.58996E-010	0.00000E+000	1.00000E-001	8.00223E-005	4	...........	 0.01
	289	58	7.04138E-002	-1.58996E-010	0.00000E+000	7.00000E-002	8.00223E-005	4	...........	 0.01
	292	58.6	4.02138E-002	-1.60996E-010	0.00000E+000	4.00000E-002	8.00223E-005	4	...........	 0.01
	295	59.2	1.02138E-002	-1.68997E-010	0.00000E+000	1.00000E-002	8.00223E-005	4	...........	 0.01
	298	59.8	-1.99862E-002	-1.82997E-010	0.00000E+000	-2.00000E-002	8.00223E-005	4	...........	 0.01
	301	60.4	-5.01862E-002	-2.20999E-010	0.00000E+000	-5.00000E-002	8.00223E-005	4	...........	 0.01
	304	61	-7.99862E-002	-2.91001E-010	0.00000E+000	-8.00000E-002	8.00223E-005	4	...........	 0.01
	307	61.6	-1.09986E-001	-4.41007E-010	0.00000E+000	-1.10000E-001	8.00223E-005	4	...........	 0.01
	310	62.2	-1.39786E-001	-7.39019E-010	0.00000E+000	-1.40000E-001	8.00223E-005	4	...........	 0.01
	313	62.8	-1.70086E-001	-1.27104E-009	0.00000E+000	-1.70000E-001	8.00223E-005	4	...........	 0.01
	316	63.4	-1.99786E-001	-2.11907E-009	0.00000E+000	-2.00000E-001	8.00223E-005	4	...........	 0.01
	319	64	-2.29786E-001	-3.27312E-009	0.00000E+000	-2.30000E-001	8.00223E-005	4	...........	 0.01
	322	64.6	-2.59786E-001	-4.56317E-009	0.00000E+000	-2.60000E-001	8.00223E-005	4	...........	 0.01
	325	65.2	-2.89786E-001	-5.74521E-009	0.00000E+000	-2.90000E-001	8.00223E-005	4	...........	 0.01
	328	65.8	-3.19786E-001	-6.67525E-009	0.00000E+000	-3.20000E-001	8.00223E-005	4	...........	 0.01
	331	66.4	-3.49786E-001	-7.35327E-009	0.00000E+000	-3.50000E-001	8.00223E-005	4	...........	 0.01
	334	67	-3.79986E-001	-7.84529E-009	0.00000E+000	-3.80000E-001	8.00223E-005	4	...........	 0.01
	337	67.6	-4.09586E-001	-8.24731E-009	0.00000E+000	-4.10000E-001	8.00223E-005	4	...........	 0.01
	340	68.2	-4.39786E-001	-8.61132E-009	0.00000E+000	-4.40000E-001	8.00223E-005	4	...........	 0.01
	343	68.8	-4.69586E-001	-8.97533E-009	0.00000E+000	-4.70000E-001	8.00223E-005	4	...........	 0.01
	346	69.4	-4.99786E-001	-9.40135E-009	0.00000E+000	-5.00000E-001	8.00223E-005	4	...........	 0.01
	349	70	-5.29786E-001	-9.91937E-009	0.00000E+000	-5.30000E-001	8.00223E-005	4	...........	 0.01
	352	70.6	-5.59786E-001	-1.05614E-008	0.00000E+000	-5.60000E-001	8.00223E-005	4	...........	 0.01
	355	71.2	-5.89786E-001	-1.13354E-008	0.00000E+000	-5.90000E-001	8.00223E-005	4	...........	 0.01
	358	71.8	-5.79786E-001	-1.07834E-008	0.00000E+000	-5.80000E-001	8.00223E-005	4	...........	 0.01
	361	72.4	-5.49686E-001	-9.95337E-009	0.00000E+000	-5.50000E-001	8.00223E-005	4	...........	 0.01
	364	73	-5.19786E-001	-9.29135E-009	0.00000E+000	-5.20000E-001	-3.19978E-004	4	...........	 0.01
	367	73.6	-4.89986E-001	-8.72732E-009	0.00000E+000	-4.90000E-001	8.00223E-005	4	...........	 0.01
[...]
	987	197.6	1.10214E-001	1.69016E-010	0.00000E+000	1.10000E-001	8.00223E-005	4	...........	 0.01
	990	198.2	1.40014E-001	1.75017E-010	0.00000E+000	1.40000E-001	8.00223E-005	4	...........	 0.01
	993	198.8	1.70214E-001	1.85017E-010	0.00000E+000	1.70000E-001	8.00223E-005	4	...........	 0.01
	996	199.4	2.00214E-001	2.09018E-010	0.00000E+000	2.00000E-001	8.00223E-005	4	...........	 0.01
	999	200	2.29914E-001	2.35019E-010	0.00000E+000	2.30000E-001	8.00223E-005	4	...........	 0.01
	1002	200.6	2.59914E-001	2.41019E-010	0.00000E+000	2.60000E-001	8.00223E-005	4	...........	 0.01
	1005	201.2	2.90014E-001	2.49019E-010	0.00000E+000	2.90000E-001	8.00223E-005	4	...........	 0.01
	1008	201.8	3.19814E-001	2.35019E-010	0.00000E+000	3.20000E-001	8.00223E-005	4	...........	 0.01
	1011	202.4	3.50214E-001	2.17018E-010	0.00000E+000	3.50000E-001	8.00223E-005	4	...........	 0.01
	1014	203	3.80014E-001	2.05018E-010	0.00000E+000	3.80000E-001	8.00223E-005	4	...........	 0.01
	1017	203.6	4.10014E-001	2.01018E-010	0.00000E+000	4.10000E-001	-4.19978E-004	4	...........	 0.01
	1020	204.2	4.40014E-001	1.93017E-010	0.00000E+000	4.40000E-001	8.00223E-005	4	...........	 0.01
	1023	204.8	4.70014E-001	1.99017E-010	0.00000E+000	4.70000E-001	8.00223E-005	4	...........	 0.01
	1026	205.4	5.00214E-001	1.85017E-010	0.00000E+000	5.00000E-001	8.00223E-005	4	...........	 0.01
	1029	206	5.29814E-001	1.93017E-010	0.00000E+000	5.30000E-001	8.00223E-005	4	...........	 0.01
	1032	206.6	5.60214E-001	1.85017E-010	0.00000E+000	5.60000E-001	8.00223E-005	4	...........	 0.01
	1035	207.2	5.89814E-001	1.99017E-010	0.00000E+000	5.90000E-001	-3.19978E-004	4	...........	 0.01
	1038	207.8	6.20214E-001	2.01018E-010	0.00000E+000	6.20000E-001	8.00223E-005	4	...........	 0.01
	1041	208.4	6.50014E-001	2.15018E-010	0.00000E+000	6.50000E-001	8.00223E-005	4	...........	 0.01
	1044	209	6.79814E-001	2.21018E-010	0.00000E+000	6.80000E-001	8.00223E-005	4	...........	 0.01
	1047	209.6	7.09914E-001	2.47019E-010	0.00000E+000	7.10000E-001	8.00223E-005	4	...........	 0.01
	1050	210.2	7.39914E-001	2.77020E-010	0.00000E+000	7.40000E-001	8.00223E-005	4	...........	 0.01
	1053	210.8	7.69814E-001	3.37023E-010	0.00000E+000	7.70000E-001	8.00223E-005	4	...........	 0.01
	1056	211.4	8.00214E-001	4.73028E-010	0.00000E+000	8.00000E-001	8.00223E-005	4	...........	 0.01
CURVE5	TABLE
	Pt	T	Vf	Im	Vu	Sig	Ach	IERange	Over	Temp
	#	s	V vs. Ref.	A	V	V	V	#	bits	deg C
	1057	211.6	7.90014E-001	2.87021E-010	0.00000E+000	7.90000E-001	8.00223E-005	4	...........	 0.01
	1058	211.8	7.80014E-001	1.89017E-010	0.00000E+000	7.80000E-001	8.00223E-005	4	...........	 0.01
	1059	212	7.69814E-001	1.17014E-010	0.00000E+000	7.70000E-001	8.00223E-005	4	...........	 0.01
	1060	212.2	7.60214E-001	7.30126E-011	0.00000E+000	7.60000E-001	8.00223E-005	4	...........	 0.01
	1061	212.4	7.50014E-001	4.10114E-011	0.00000E+000	7.50000E-001	8.00223E-005	4	...........	 0.01
	1062	212.6	7.40214E-001	1.50104E-011	0.00000E+000	7.40000E-001	8.00223E-005	4	...........	 0.01
	1063	212.8	7.29814E-001	-9.90239E-013	0.00000E+000	7.30000E-001	8.00223E-005	4	...........	 0.01
	1064	213	7.19814E-001	-1.69909E-011	0.00000E+000	7.20000E-001	8.00223E-005	4	...........	 0.01
	1065	213.2	7.10014E-001	-3.49915E-011	0.00000E+000	7.10000E-001	8.00223E-005	4	...........	 0.01
	1066	213.4	7.00014E-001	-3.49915E-011	0.00000E+000	7.00000E-001	-2.19978E-004	4	...........	 0.01
	1067	213.6	6.90214E-001	-3.89917E-011	0.00000E+000	6.90000E-001	8.00223E-005	4	...........	 0.01
	1068	213.8	6.80014E-001	-4.29919E-011	0.00000E+000	6.80000E-001	-2.19978E-004	4	...........	 0.01
	1069	214	6.70014E-001	-4.69920E-011	0.00000E+000	6.70000E-001	8.00223E-005	4	...........	 0.01
	1070	214.2	6.60014E-001	-5.49923E-011	0.00000E+000	6.60000E-001	8.00223E-005	4	...........	 0.01
	1071	214.4	6.49814E-001	-5.49923E-011	0.00000E+000	6.50000E-001	8.00223E-005	4	...........	 0.01
	1072	214.6	6.40214E-001	-5.49923E-011	0.00000E+000	6.40000E-001	8.00223E-005	4	...........	 0.01
	1073	214.8	6.30014E-001	-5.49923E-011	0.00000E+000	6.30000E-001	8.00223E-005	4	...........	 0.01
	1074	215	6.20014E-001	-5.89925E-011	0.00000E+000	6.20000E-001	8.00223E-005	4	...........	 0.01
	1075	215.2	6.10214E-001	-5.69924E-011	0.00000E+000	6.10000E-001	8.00223E-005	4	...........	 0.01
	1076	215.4	6.00214E-001	-5.49923E-011	0.00000E+000	6.00000E-001	8.00223E-005	4	...........	 0.01
	1077	215.6	5.90014E-001	-6.09925E-011	0.00000E+000	5.90000E-001	8.00223E-005	4	...........	 0.01
	1078	215.8	5.80014E-001	-6.29926E-011	0.00000E+000	5.80000E-001	8.00223E-005	4	...........	 0.01
	1079	216	5.70014E-001	-6.09925E-011	0.00000E+000	5.70000E-001	-3.19978E-004	4	...........	 0.01
	1080	216.2	5.59914E-001	-6.29926E-011	0.00000E+000	5.60000E-001	8.00223E-005	4	...........	 0.01
	1081	216.4	5.49814E-001	-6.49927E-011	0.00000E+000	5.50000E-001	8.00223E-005	4	...........	 0.01
	1082	216.6	5.40014E-001	-6.69928E-011	0.00000E+000	5.40000E-001	8.00223E-005	4	...........	 0.01
	1083	216.8	5.29814E-001	-6.49927E-011	0.00000E+000	5.30000E-001	8.00223E-005	4	...........	 0.01
	1084	217	5.19814E-001	-6.69928E-011	0.00000E+000	5.20000E-001	8.00223E-005	4	...........	 0.01
	1085	217.2	5.10014E-001	-6.69928E-011	0.00000E+000	5.10000E-001	8.00223E-005	4	...........	 0.01
	1086	217.4	5.00214E-001	-7.09929E-011	0.00000E+000	5.00000E-001	8.00223E-005	4	...........	 0.01
	1087	217.6	4.90014E-001	-7.29930E-011	0.00000E+000	4.90000E-001	8.00223E-005	4	...........	 0.01
	1088	217.8	4.80014E-001	-7.09929E-011	0.00000E+000	4.80000E-001	8.00223E-005	4	...........	 0.01
	1089	218	4.70014E-001	-7.09929E-011	0.00000E+000	4.70000E-001	-3.19978E-004	4	...........	 0.01
	1090	218.2	4.60014E-001	-7.29930E-011	0.00000E+000	4.60000E-001	8.00223E-005	4	...........	 0.01
	1091	218.4	4.49814E-001	-7.89932E-011	0.00000E+000	4.50000E-001	8.00223E-005	4	...........	 0.01
	1092	218.6	4.40014E-001	-7.89932E-011	0.00000E+000	4.40000E-001	8.00223E-005	4	...........	 0.01
	1093	218.8	4.30014E-001	-8.29934E-011	0.00000E+000	4.30000E-001	8.00223E-005	4	...........	 0.01
	1094	219	4.20214E-001	-8.29934E-011	0.00000E+000	4.20000E-001	8.00223E-005	4	...........	 0.01
	1095	219.2	4.10214E-001	-8.69935E-011	0.00000E+000	4.10000E-001	8.00223E-005	4	...........	 0.01
	1096	219.4	4.00214E-001	-8.89936E-011	0.00000E+000	4.00000E-001	8.00223E-005	4	...........	 0.01
	1097	219.6	3.90014E-001	-9.09937E-011	0.00000E+000	3.90000E-001	8.00223E-005	4	...........	 0.01
	1098	219.8	3.80014E-001	-9.29938E-011	0.00000E+000	3.80000E-001	8.00223E-005	4	...........	 0.01
	1099	220	3.70214E-001	-9.49938E-011	0.00000E+000	3.70000E-001	-3.19978E-004	4	...........	 0.01
	1100	220.2	3.60214E-001	-9.69939E-011	0.00000E+000	3.60000E-001	8.00223E-005	4	...........	 0.01
	1101	220.4	3.50014E-001	-9.89940E-011	0.00000E+000	3.50000E-001	-2.19978E-004	4	...........	 0.01
	1102	220.6	3.40014E-001	-9.49938E-011	0.00000E+000	3.40000E-001	-1.19978E-004	4	...........	 0.01
	1103	220.8	3.30214E-001	-1.02994E-010	0.00000E+000	3.30000E-001	8.00223E-005	4	...........	 0.01
	1104	221	3.20214E-001	-1.04994E-010	0.00000E+000	3.20000E-001	8.00223E-005	4	...........	 0.01
	1105	221.2	3.09814E-001	-1.10994E-010	0.00000E+000	3.10000E-001	-3.19978E-004	4	...........	 0.01
	1106	221.4	3.00014E-001	-1.08994E-010	0.00000E+000	3.00000E-001	8.00223E-005	4	...........	 0.01
	1107	221.6	2.90214E-001	-1.10994E-010	0.00000E+000	2.90000E-001	8.00223E-005	4	...........	 0.01
	1108	221.8	2.80014E-001	-1.14995E-010	0.00000E+000	2.80000E-001	8.00223E-005	4	...........	 0.01
	1109	222	2.70414E-001	-1.18995E-010	0.00000E+000	2.70000E-001	8.00223E-005	4	...........	 0.01
	1110	222.2	2.59914E-001	-1.22995E-010	0.00000E+000	2.60000E-001	8.00223E-005	4	...........	 0.01
	1111	222.4	2.50414E-001	-1.20995E-010	0.00000E+000	2.50000E-001	8.00223E-005	4	...........	 0.01
	1112	222.6	2.39814E-001	-1.30995E-010	0.00000E+000	2.40000E-001	8.00223E-005	4	...........	 0.01
	1113	222.8	2.29614E-001	-1.22995E-010	0.00000E+000	2.30000E-001	8.00223E-005	4	...........	 0.01
	1114	223	2.20014E-001	-1.30995E-010	0.00000E+000	2.20000E-001	8.00223E-005	4	...........	 0.01
	1115	223.2	2.10014E-001	-1.30995E-010	0.00000E+000	2.10000E-001	8.00223E-005	4	...........	 0.01
	1116	223.4	2.00214E-001	-1.36995E-010	0.00000E+000	2.00000E-001	8.00223E-005	4	...........	 0.01
	1117	223.6	1.90014E-001	-1.34995E-010	0.00000E+000	1.90000E-001	8.00223E-005	4	...........	 0.01
	1118	223.8	1.80014E-001	-1.42996E-010	0.00000E+000	1.80000E-001	8.00223E-005	4	...........	 0.01
	1119	224	1.70214E-001	-1.44996E-010	0.00000E+000	1.70000E-001	8.00223E-005	4	...........	 0.01
	1120	224.2	1.60214E-001	-1.44996E-010	0.00000E+000	1.60000E-001	-2.19978E-004	4	...........	 0.01